Folder: efeffit_installer/ifeffit-1.2.5/examples/Minimize

Note: ifeffit-1.2.5/examples/README
IFEFFIT Examples

This directory contains some simple examples of using Ifeffit for
general data analysis and especially XAFS analysis.  The examples
are organized by category and complexity, and broken into small
ifeffit scripts (all with an extension '.iff') each of which can
be run individually from the system command-line as

  ~> ifeffit help.iff

or from within the Ifeffit environment as

  ~> ifeffit

  Ifeffit> load help.iff
  
Each script contains some documentation of its own.  A brief 
description of the scripts follows:
 
  help.iff  
     Print information about these examples, test that Ifeffit
     loads, runs, and can print to the screen.

  Anomalous/calc_f1f2.iff
     calculate f' and f'' for Cu, using energy points from an
     external data file 

  Lytle/Lytle.iff
     read datafile downloaded from Farrel Lytle database, convert 
     motor steps to energy, and plot XAFS.

  Plotting/text-strings.iff
     use of text strings in plotting, especially commonly used
     greek-character constructs for XAFS spectra.

  Pre_Edge/pre.iff
     simple example of pre-edge subtraction of XAFS spectra
 
  Spline/autobk.iff
    simple example of autobk-like background subtraction of XAFS spectra

  Macros
    This directory contains several useful little macros

     Macros.iff  collection of generally useful macros, most of 
                 them reasonably well annotated
     quit.iff    simple little macro to allow 'q' to mean 'quit'
  

DO.iff
M1.if

W.iff
ave.xmu
iff.out
tmp.iff
xafs.dat


  Data_Processing
GG.xmu
a.dat
a.xmu
b.chi
cu.chi
cu10k.dat
ifeffit.sav
interpolote.iff
sro.chi
tmp.dat
write_exa.iff
x.sav
xmu.dat
y.sav

   FF2CHI/
A-ff2chi.iff
B-x.inp
B-x.log
B-x.prm
B.iff
Debye.iff
F-fit.inp
Feffit.iff
G.iff
H.iff
a.inp
cu_chi.dat
feffcu03.dat
my_feffit.log
save_reff.iff
test.iff
test2.iff
test_terp.iff
tmp_out.log


Minimize:
Do_fits.pl
amps.dat
centers.dat
fit_xrd.iff
noise.dat
sigmas.dat
test.dat
xrd.dat
xrd.dat.fit

File: xrd.dat
#:RESULT:FerriteDAFS01.0003.q
#--------------------------
#Q     Intensity
  0.799378       274.233
  0.810609       274.274
  0.821840       273.943
  0.833069       272.993
  0.844297       272.515
  0.855524       271.593
  0.866750       270.133
  0.877975       268.234
  0.889198       268.391
  0.900420       267.788
  0.911641       265.309
  0.922861       264.413
  0.934079       263.964
  0.945297       262.625
  0.956512       261.616
  0.967727       260.905
  0.978940       260.428
  0.990152       258.733
  1.001363       257.007
  1.012572       256.65
  1.023779       256.396
  1.034986       254.155
  1.046191       252.213
  1.057394       251.139
  1.068596       250.644
  1.079797       249.831
  1.090996       249.418
  1.102193       247.253
  1.113389       246.97
  1.124584       245.958
  1.135777       244.911
  1.146968       243.639
  1.158158       243.093
  1.169346       241.334
  1.180533       240.907
  1.191718       239.911
  1.202901       239.24
  1.214082       238.59
  1.225263       237.854
  1.236441       237.033
  1.247617       236.562
  1.258792       236.749
  1.269966       245.391
  1.281137       252.525
  1.292307       248.529
  1.303474       235.449
  1.314641       229.691
  1.325805       228.681
  1.336967       227.145
  1.348128       226.573
  1.359287       225.168
  1.370444       223.901
  1.381599       223.854
  1.392752       223.189
  1.403903       221.454
  1.415052       220.6
  1.426199       220.325
  1.437345       218.844
  1.448488       216.986
  1.459629       216.743
  1.470769       216.196
  1.481906       214.636
  1.493041       214.12
  1.504175       213.083
  1.515306       212.221
  1.526435       212.018
  1.537562       210.225
  1.548687       208.753
  1.559809       208.748
  1.570930       207.348
  1.582049       207.143
  1.593165       206.443
  1.604279       205.609
  1.615391       205.171
  1.626500       203.725
  1.637608       202.519
  1.648713       201.6
  1.659816       201.228
  1.670916       201.413
  1.682014       199.972
  1.693110       198.459
  1.704204       197.843
  1.715295       195.842
  1.726384       195.749
  1.737471       195.932
  1.748555       195.172
  1.759637       194.195
  1.770716       193.658
  1.781793       192.844
  1.792868       191.807
  1.803939       190.855
  1.815009       190.027
  1.826076       188.352
  1.837140       188.633
  1.848202       187.482
  1.859262       187.56
  1.870318       186.229
  1.881373       186.324
  1.892425       184.775
  1.903473       184.743
  1.914520       183.106
  1.925564       183.289
  1.936605       183.02
  1.947644       181.357
  1.958679       181.164
  1.969712       180.757
  1.980743       184.761
  1.991771       198.555
  2.002795       213.932
  2.013818       195.514
  2.024837       178.846
  2.035854       176.778
  2.046868       176.813
  2.057878       178.018
  2.068887       184.718
  2.079892       205.716
  2.090894       229.248
  2.101894       215.131
  2.112891       184.626
  2.123885       174.721
  2.134876       171.549
  2.145863       170.608
  2.156848       168.796
  2.167830       168.362
  2.178809       167.584
  2.189785       166.811
  2.200758       165.412
  2.211728       165.15
  2.222696       163.722
  2.233659       163.096
  2.244620       162.669
  2.255578       162.363
  2.266532       161.845
  2.277484       161.349
  2.288432       160.661
  2.299377       159.654
  2.310319       159.616
  2.321258       159.298
  2.332194       159.124
  2.343127       158.895
  2.354056       158.295
  2.364982       158.22
  2.375905       157.996
  2.386824       158.085
  2.397740       160.572
  2.408653       163.912
  2.419563       171.837
  2.430469       199.432
  2.441372       277.294
  2.452271       359.23
  2.463167       289.348
  2.474060       199.066
  2.484950       171.791
  2.495836       161.371
  2.506718       156.476
  2.517597       153.776
  2.528473       152.376
  2.539345       153.059
  2.550213       159.282
  2.561079       166.808
  2.571940       158.836
  2.582798       150.252
  2.593652       147.755
  2.604503       146.349
  2.615351       145.464
  2.626194       144.605
  2.637035       144.888
  2.647871       144.572
  2.658704       144.036
  2.669533       143.289
  2.680359       143.067
  2.691180       143.015
  2.701998       143.069
  2.712813       142.567
  2.723624       142.044
  2.734431       141.633
  2.745234       140.909
  2.756033       140.812
  2.766829       140.634
  2.777620       140.528
  2.788408       140.631
  2.799192       140.062
  2.809973       139.647
  2.820749       139.03
  2.831522       139.199
  2.842290       139.28
  2.853055       138.437
  2.863816       138.315
  2.874573       137.718
  2.885325       137.868
  2.896074       138.57
  2.906819       139.515
  2.917560       140.224
  2.928297       143.582
  2.939030       152.07
  2.949759       172.67
  2.960484       183.99
  2.971204       157.949
  2.981921       144.34
  2.992633       139.512
  3.003342       137.659
  3.014046       136.337
  3.024746       135.208
  3.035442       134.717
  3.046134       134.045
  3.056821       133.578
  3.067504       133.54
  3.078184       132.407
  3.088859       132.21
  3.099529       132.562
  3.110195       131.824
  3.120858       131.834
  3.131516       131.518
  3.142169       131.508
  3.152818       130.398
  3.163463       130.768
  3.174103       131.716
  3.184740       131.213
  3.195371       130.429
  3.205999       130.477
  3.216622       130.836
  3.227240       131.54
  3.237854       131.121
  3.248463       134.181
  3.259069       149.787
  3.269669       169.327
  3.280266       135.066
  3.290857       129.636
  3.301444       129.068
  3.312027       128.639
  3.322605       128.189
  3.333178       128.191
  3.343747       127.449
  3.354311       127.576
  3.364871       128.03
  3.375426       127.731
  3.385976       127.634
  3.396522       127.309
  3.407063       127.278
  3.417599       126.976
  3.428130       126.938
  3.438657       126.592
  3.449180       126.442
  3.459697       126.366
  3.470210       126.79
  3.480717       126.209
  3.491220       126.216
  3.501719       126.108
  3.512213       125.854
  3.522701       125.392
  3.533185       126.064
  3.543664       126.105
  3.554137       125.175
  3.564607       126.357
  3.575071       126.366
  3.585531       127.363
  3.595985       129.253
  3.606434       133.296
  3.616878       147.533
  3.627318       149.569
  3.637752       131.623